0M,,1M,,2M,,3M,,
Wavelength (nm),Intensity (a.u.),Wavelength (nm),Intensity (a.u.),Wavelength (nm),Intensity (a.u.),Wavelength (nm),Intensity (a.u.),
300,105.6866989,300,131.0778046,300,144.3600616,300,128.9197388,
300.9299927,81.75307465,300.9299927,105.9719772,300.9299927,98.42211914,300.9299927,77.818367,
302.0299988,78.70330811,302.0299988,104.2918777,302.0299988,87.42627716,302.0299988,40.32329178,
302.9599915,95.69438171,302.9599915,114.1388245,302.9599915,92.69439697,302.9599915,35.85642624,
304.0599976,116.5388336,304.0599976,141.8799896,304.0599976,113.619812,304.0599976,35.41563416,
305,134.028656,305,160.5629272,305,127.5241852,305,40.79207611,
305.9299927,156.2372131,305.9299927,188.2337952,305.9299927,144.4976044,305.9299927,45.33439255,
307.0299988,184.0376587,307.0299988,218.9660034,307.0299988,164.6961975,307.0299988,50.60177994,
307.9599915,202.9798126,307.9599915,238.6451874,307.9599915,184.4507446,307.9599915,58.69705963,
309.0599976,223.7839355,309.0599976,265.3285522,309.0599976,205.4099579,309.0599976,65.72685242,
310,241.1060486,310,286.9230652,310,223.3153534,310,73.39728546,
310.9299927,267.1399841,310.9299927,314.9638367,310.9299927,243.1161652,310.9299927,83.41638947,
312.0299988,284.8499146,312.0299988,329.4952698,312.0299988,265.6278381,312.0299988,95.51746368,
312.9599915,302.6555176,312.9599915,353.3666382,312.9599915,281.5824585,312.9599915,105.6017914,
314.0599976,326.037323,314.0599976,376.0272827,314.0599976,309.8058472,314.0599976,120.5875626,
315,346.9804077,315,402.3502808,315,332.6394348,315,131.6083374,
315.9299927,365.498291,315.9299927,417.0928345,315.9299927,358.1276855,315.9299927,145.1452026,
317.0299988,394.382843,317.0299988,448.0555115,317.0299988,384.8929749,317.0299988,161.9161987,
317.9599915,413.6341858,317.9599915,473.9756775,317.9599915,408.7889709,317.9599915,174.2343597,
319.0599976,441.2717896,319.0599976,496.289856,319.0599976,435.1991577,319.0599976,190.4068146,
320,456.8087158,320,520.4391479,320,448.9068909,320,210.0313416,
321.0700073,476.4310608,321.0700073,548.944458,321.0700073,482.1576538,321.0700073,226.5382996,
322,497.914978,322,566.5612183,322,498.1328125,322,249.4725647,
323.0700073,516.2860107,323.0700073,579.2009277,323.0700073,533.1020508,323.0700073,268.1365967,
324,531.0309448,324,594.322998,324,552.2185059,324,291.2141724,
325.0700073,549.0253906,325.0700073,618.1762085,325.0700073,576.6447144,325.0700073,310.0760193,
326,555.6815796,326,626.3928223,326,590.2941284,326,327.0603333,
327.0700073,561.0974731,327.0700073,636.4219971,327.0700073,616.5581055,327.0700073,355.5986023,
328,571.0527954,328,639.8234253,328,618.996521,328,369.4012146,
329.0700073,571.3622437,329.0700073,642.5180054,329.0700073,640.229126,329.0700073,389.4401855,
330,572.9041748,330,643.4658203,330,643.1032104,330,406.2253723,
330.9299927,575.3441162,330.9299927,646.7858887,330.9299927,662.7879639,330.9299927,418.0103455,
332.0299988,571.43573,332.0299988,638.536377,332.0299988,669.5698853,332.0299988,430.311615,
332.9599915,568.5018921,332.9599915,649.0548706,332.9599915,679.664917,332.9599915,446.7896423,
334.0599976,577.5256958,334.0599976,640.8521729,334.0599976,693.6556396,334.0599976,461.8713989,
335,577.0289307,335,646.0582886,335,703.2258911,335,476.206665,
335.9299927,570.4257813,335.9299927,640.5464478,335.9299927,715.1124878,335.9299927,495.5124817,
337.0299988,568.7263184,337.0299988,645.4180298,337.0299988,712.0411987,337.0299988,507.0858459,
337.9599915,562.2733154,337.9599915,636.1921387,337.9599915,734.3924561,337.9599915,520.5405884,
339.0599976,564.5570068,339.0599976,636.3108521,339.0599976,734.6978149,339.0599976,542.6077881,
340,552.1677856,340,630.7722778,340,738.8225708,340,555.2050781,
341.0700073,551.5139771,341.0700073,615.6276245,341.0700073,740.1101074,341.0700073,561.6841431,
342,548.5003662,342,613.6831055,342,739.5914917,342,573.8666382,
343.0700073,535.5340576,343.0700073,596.8528442,343.0700073,742.6577759,343.0700073,585.7672729,
344,527.133667,344,592.1174316,344,748.8119507,344,594.1083374,
345.0700073,519.9476929,345.0700073,582.1364136,345.0700073,742.4155884,345.0700073,600.8574219,
346,517.9157715,346,575.7698975,346,743.0320435,346,613.1350708,
347.0700073,499.384552,347.0700073,561.9391479,347.0700073,744.5935669,347.0700073,615.371582,
348,493.3749695,348,558.0484619,348,745.9002075,348,624.1743164,
349.0700073,488.7599792,349.0700073,542.7283936,349.0700073,738.0839233,349.0700073,638.2928467,
350,475.4874878,350,534.5513306,350,730.3829956,350,645.102356,
351.0700073,468.6477966,351.0700073,520.8423462,351.0700073,726.2382202,351.0700073,640.8369141,
352,453.2922058,352,518.1062622,352,721.0914307,352,644.9047241,
353.0700073,447.5022278,353.0700073,498.5836182,353.0700073,718.0085449,353.0700073,645.7720337,
354,432.7875061,354,490.9090881,354,709.1941528,354,643.8511963,
355.0700073,425.7722473,355.0700073,471.4532776,355.0700073,703.7209473,355.0700073,649.4342651,
356,413.210968,356,467.1760254,356,697.2752075,356,652.4620972,
357.0700073,406.3621521,357.0700073,455.6919861,357.0700073,682.4081421,357.0700073,643.4160767,
358,398.8133545,358,438.062439,358,679.8057861,358,649.8348389,
359.0700073,380.9405823,359.0700073,427.1464844,359.0700073,661.3154297,359.0700073,641.8688965,
360,367.8982239,360,412.8339233,360,644.0432739,360,638.0775757,
361.0700073,356.6776123,361.0700073,399.2828674,361.0700073,642.7358398,361.0700073,626.7803955,
362,350.1081238,362,386.2427979,362,636.852417,362,623.4052124,
363.0700073,329.3840637,363.0700073,376.7157593,363.0700073,618.3803711,363.0700073,614.8134155,
364,318.9041138,364,361.1446228,364,604.6990967,364,615.0348511,
365.0700073,311.434082,365.0700073,347.1998291,365.0700073,590.1202393,365.0700073,599.4415894,
366,294.3059387,366,336.0655518,366,576.0134888,366,590.1651611,
367.0700073,279.5056458,367.0700073,325.51297,367.0700073,556.3883057,367.0700073,583.3691406,
368,275.3335266,368,314.7451782,368,549.2324829,368,573.3150024,
369.0700073,262.6363831,369.0700073,301.2503052,369.0700073,536.2163086,369.0700073,563.0492554,
370,252.9827118,370,285.4960938,370,518.2263794,370,550.6338501,
371.0700073,244.8029938,371.0700073,272.223114,371.0700073,508.2068481,371.0700073,539.8190918,
372,233.8735352,372,267.223938,372,499.2001648,372,534.9073486,
373.0700073,227.3479462,373.0700073,255.306778,373.0700073,478.7130432,373.0700073,516.6742554,
374,214.5018921,374,244.706131,374,470.1563721,374,505.727417,
375.0700073,203.7326355,375.0700073,235.6336823,375.0700073,448.7522583,375.0700073,494.7891235,
376,197.2691193,376,225.3608093,376,437.1042175,376,486.2530212,
377.0700073,189.7849884,377.0700073,213.1708527,377.0700073,421.0254822,377.0700073,470.3927612,
378,181.2533569,378,207.0454254,378,410.428772,378,462.9949036,
379.0700073,173.667572,379.0700073,198.2938232,379.0700073,396.0310364,379.0700073,443.0177002,
380,166.1070251,380,189.1830444,380,386.0778809,380,440.2375793,
381.0700073,159.2886353,381.0700073,178.9240417,381.0700073,372.834137,381.0700073,422.2720947,
382,150.4118347,382,172.4349365,382,363.5239563,382,410.8262024,
383.0700073,140.9987946,383.0700073,164.6014404,383.0700073,342.9744263,383.0700073,395.0131531,
384,135.9737244,384,152.5865936,384,335.462738,384,389.6140442,
385.0700073,131.0426483,385.0700073,150.533905,385.0700073,325.7115784,385.0700073,376.9168701,
386,126.8569946,386,142.8021393,386,312.9994202,386,370.2147217,
387.0700073,121.0325317,387.0700073,138.2584686,387.0700073,299.3145447,387.0700073,356.643219,
388,112.653717,388,128.2193604,388,289.8527222,388,344.5342102,
389.0700073,108.2796936,389.0700073,122.9620438,389.0700073,283.9319763,389.0700073,336.6860657,
390,103.3097076,390,118.67379,390,271.0734558,390,324.0645752,
391.0700073,98.3921051,391.0700073,113.033432,391.0700073,260.9740601,391.0700073,311.3270874,
392,94.94869232,392,109.0762558,392,252.5183563,392,303.7749329,
393.0700073,89.45183563,393.0700073,104.5255356,393.0700073,243.6511688,393.0700073,297.2217102,
394,86.33233643,394,99.48445892,394,240.7152405,394,282.791626,
395.0700073,81.93240356,395.0700073,94.15326691,395.0700073,226.7228699,395.0700073,275.1714478,
396,77.75576782,396,89.57540894,396,221.1638794,396,259.0682983,
397.0700073,73.63556671,397.0700073,84.74736023,397.0700073,208.680542,397.0700073,252.9691772,
398,68.79116058,398,83.53401184,398,205.1847687,398,244.8279572,
399.0700073,67.95591736,399.0700073,79.45487213,399.0700073,193.1235046,399.0700073,236.8937073,
400,66.69905853,400,75.42788696,400,188.7220917,400,233.6848602,
401.0700073,60.52829361,401.0700073,72.07730865,401.0700073,179.8326721,401.0700073,222.8421021,
402,58.00796127,402,68.5586319,402,175.5410919,402,215.4255371,
403.0700073,53.84752274,403.0700073,64.60832214,403.0700073,169.5142517,403.0700073,205.5236969,
404,54.02914047,404,61.08143616,404,162.6780701,404,199.4739685,
405.0700073,51.98554611,405.0700073,58.69285202,405.0700073,153.401474,405.0700073,190.4589996,
406,47.15422821,406,56.89812469,406,146.3300934,406,187.0494995,
407.0700073,44.79668045,407.0700073,54.36343002,407.0700073,141.6389465,407.0700073,176.605011,
408,43.76082611,408,52.11045456,408,130.7897339,408,173.9811249,
409.0700073,40.9401474,409.0700073,49.07829285,409.0700073,126.6441193,409.0700073,165.331543,
410,40.17303085,410,47.0966835,410,124.8328857,410,158.6090851,
411.0700073,37.92104721,411.0700073,43.51986694,411.0700073,120.7729492,411.0700073,157.8733826,
412,36.04156113,412,41.60168457,412,116.9548645,412,150.9522552,
413.0700073,34.37698364,413.0700073,41.82516479,413.0700073,110.6041336,413.0700073,145.1664581,
414,33.84897614,414,40.10967636,414,106.9174271,414,137.2219696,
415.0700073,32.28020477,415.0700073,37.75024414,415.0700073,99.37865448,415.0700073,129.3400116,
416,29.58704758,416,33.99363708,416,98.44569397,416,125.9565048,
417.0700073,28.37229919,417.0700073,33.44504929,417.0700073,94.29857635,417.0700073,122.7258072,
418,28.80636597,418,33.13083267,418,89.84375,418,115.5731125,
419.0700073,27.04580688,419.0700073,31.50574493,419.0700073,85.06389618,419.0700073,112.9445267,
420,24.83008003,420,29.02674103,420,81.2385788,420,104.7806091,
421.0599976,24.5297718,421.0599976,27.9415493,421.0599976,80.97466278,421.0599976,104.6896057,
421.9599915,22.8806591,421.9599915,26.44094276,421.9599915,76.96829224,421.9599915,98.73523712,
423.0299988,22.66782951,423.0299988,26.73671722,423.0299988,74.44818878,423.0299988,95.27800751,
423.9299927,21.35620499,423.9299927,24.93825912,423.9299927,70.55747223,423.9299927,93.48962402,
425,20.24716949,425,23.61963654,425,68.05004883,425,89.59637451,
426.0599976,19.19997025,426.0599976,22.6972065,426.0599976,65.38360596,426.0599976,85.02241516,
426.9599915,19.36210632,426.9599915,21.44178772,426.9599915,62.45797348,426.9599915,80.84912109,
428.0299988,18.09794807,428.0299988,20.40153694,428.0299988,61.31227493,428.0299988,81.16652679,
428.9299927,17.03523445,428.9299927,19.69539452,428.9299927,56.34862518,428.9299927,76.02532959,
430,17.81977844,430,20.32919121,430,54.48238754,430,71.18714142,
431.0700073,16.40104103,431.0700073,18.09511948,431.0700073,54.00928497,431.0700073,69.69789886,
432,14.69939995,432,18.22237968,432,54.33633423,432,68.46006012,
433.0700073,15.07020378,433.0700073,17.20970345,433.0700073,48.96754074,433.0700073,64.9447403,
434,14.241539,434,16.25488663,434,47.96506119,434,62.85138321,
435.0700073,13.46544266,435.0700073,16.06991386,435.0700073,46.49492264,435.0700073,59.16022491,
436,12.85240459,436,15.27903652,436,43.14818573,436,54.40449524,
437.0700073,12.19637871,437.0700073,14.47589779,437.0700073,40.65040588,437.0700073,54.31978989,
438,11.60180283,438,14.58439064,438,40.61090851,438,52.52592087,
439.0700073,12.02520275,439.0700073,14.03733826,439.0700073,37.95188904,439.0700073,50.17729187,
440,10.43264294,440,13.17305756,440,37.31894684,440,49.04175186,
441.0599976,10.78132915,441.0599976,13.29338074,441.0599976,35.17090988,441.0599976,44.52587128,
441.9599915,10.86612129,441.9599915,12.9230299,441.9599915,33.71760941,441.9599915,44.1531601,
443.0299988,10.21437836,443.0299988,11.91389084,443.0299988,33.41559982,443.0299988,43.09706116,
443.9299927,9.380192757,443.9299927,10.70127869,443.9299927,31.59240913,443.9299927,40.87287903,
445,9.48438549,445,11.50290012,445,29.73314476,445,39.08505249,
446.0599976,8.828802109,446.0599976,10.74185944,446.0599976,26.73354912,446.0599976,36.67126083,
446.9599915,7.976993084,446.9599915,9.994367599,446.9599915,26.3143425,446.9599915,36.713974,
448.0299988,9.02325058,448.0299988,10.32274246,448.0299988,26.8219986,448.0299988,34.72566986,
448.9299927,8.169273376,448.9299927,9.191005707,448.9299927,25.09276962,448.9299927,32.55463409,
450,8.195876122,450,9.518993378,450,23.98152161,450,32.8184967,

0M,
0M
Collection Time: 4/2/2025 11:28:02 AM
Operator Name  :
Scan Software Version: 1.2(147)
Parameter List :
Instrument                        Cary Eclipse
Instrument Serial Number          EL00063371
Data mode                         Fluorescence
Scan mode                         Emission
X Mode                            Wavelength (nm)
Start (nm)                        300.00
Stop (nm)                         450.00
Ex. Wavelength (nm)               295.00
Ex. Slit (nm)                     5
Em. Slit (nm)                     5
Scan rate (nm/min)                600.00
Data interval (nm)                1.0000
Averaging Time (s)                0.1000
Excitation filter                 Auto
Emission filter                   Open
PMT voltage (V)                   740
Corrected spectra                 OFF
Multicell holder                  Multicell
Multi zero                       OFF
Method Log     :
Method Name    : Default
Date/Time stamp: 4/2/2025 11:22:42 AM
Method Modifications:
Overlayed Graphs Changed: 4/2/2025 11:23:29 AM, Old:OFF, New:ON
Cell Changer Changed: 4/2/2025 11:23:29 AM, Old:OFF, New:ON
Cell2 Changed: 4/2/2025 11:23:29 AM, Old:OFF, New:ON
Monitoring device: Changed: 4/2/2025 11:23:29 AM, Old:PCB 150, New:Block
Excitation Wavelength Changed: 4/2/2025 11:23:29 AM, Old: 350.00, New: 295.00
Emission Wavelength Changed: 4/2/2025 11:23:29 AM, Old: 400.00, New: 300.00
Stop Wavelength Changed: 4/2/2025 11:23:29 AM, Old: 600.00, New: 450.00
PMT Volts Changed: 4/2/2025 11:24:58 AM, Old:600, New:700
Emission PMT (V): Changed: 4/2/2025 11:24:58 AM, Old: 600, New: 700
PMT Volts Changed: 4/2/2025 11:25:59 AM, Old:700, New:800
Emission PMT (V): Changed: 4/2/2025 11:25:59 AM, Old: 700, New: 800
PMT Volts Changed: 4/2/2025 11:27:00 AM, Old:800, New:750
Emission PMT (V): Changed: 4/2/2025 11:27:00 AM, Old: 800, New: 750
PMT Volts Changed: 4/2/2025 11:27:45 AM, Old:750, New:740
Emission PMT (V): Changed: 4/2/2025 11:27:45 AM, Old: 750, New: 740
Sample2 Changed: 4/2/2025 11:28:02 AM, Old:Sample2, New:0M
End Method Modifications

1M,
1M
Collection Time: 4/2/2025 11:47:06 AM
Operator Name  :
Scan Software Version: 1.2(147)
Parameter List :
Instrument                        Cary Eclipse
Instrument Serial Number          EL00063371
Data mode                         Fluorescence
Scan mode                         Emission
X Mode                            Wavelength (nm)
Start (nm)                        300.00
Stop (nm)                         450.00
Ex. Wavelength (nm)               295.00
Ex. Slit (nm)                     5
Em. Slit (nm)                     5
Scan rate (nm/min)                600.00
Data interval (nm)                1.0000
Averaging Time (s)                0.1000
Excitation filter                 Auto
Emission filter                   Open
PMT voltage (V)                   740
Corrected spectra                 OFF
Multicell holder                  Multicell
Multi zero                       OFF
Method Log     :
Method Name    : Default
Date/Time stamp: 4/2/2025 11:22:42 AM
Method Modifications:
Overlayed Graphs Changed: 4/2/2025 11:23:29 AM, Old:OFF, New:ON
Cell Changer Changed: 4/2/2025 11:23:29 AM, Old:OFF, New:ON
Cell2 Changed: 4/2/2025 11:23:29 AM, Old:OFF, New:ON
Monitoring device: Changed: 4/2/2025 11:23:29 AM, Old:PCB 150, New:Block
Excitation Wavelength Changed: 4/2/2025 11:23:29 AM, Old: 350.00, New: 295.00
Emission Wavelength Changed: 4/2/2025 11:23:29 AM, Old: 400.00, New: 300.00
Stop Wavelength Changed: 4/2/2025 11:23:29 AM, Old: 600.00, New: 450.00
PMT Volts Changed: 4/2/2025 11:24:58 AM, Old:600, New:700
Emission PMT (V): Changed: 4/2/2025 11:24:58 AM, Old: 600, New: 700
PMT Volts Changed: 4/2/2025 11:25:59 AM, Old:700, New:800
Emission PMT (V): Changed: 4/2/2025 11:25:59 AM, Old: 700, New: 800
PMT Volts Changed: 4/2/2025 11:27:00 AM, Old:800, New:750
Emission PMT (V): Changed: 4/2/2025 11:27:00 AM, Old: 800, New: 750
PMT Volts Changed: 4/2/2025 11:27:45 AM, Old:750, New:740
Emission PMT (V): Changed: 4/2/2025 11:27:45 AM, Old: 750, New: 740
Sample2 Changed: 4/2/2025 11:28:02 AM, Old:Sample2, New:0M
Sample2 Changed: 4/2/2025 11:47:06 AM, Old:0M, New:1M
End Method Modifications

2M,
2M
Collection Time: 4/2/2025 12:14:51 PM
Operator Name  :
Scan Software Version: 1.2(147)
Parameter List :
Instrument                        Cary Eclipse
Instrument Serial Number          EL00063371
Data mode                         Fluorescence
Scan mode                         Emission
X Mode                            Wavelength (nm)
Start (nm)                        300.00
Stop (nm)                         450.00
Ex. Wavelength (nm)               295.00
Ex. Slit (nm)                     5
Em. Slit (nm)                     5
Scan rate (nm/min)                600.00
Data interval (nm)                1.0000
Averaging Time (s)                0.1000
Excitation filter                 Auto
Emission filter                   Open
PMT voltage (V)                   740
Corrected spectra                 OFF
Multicell holder                  Multicell
Multi zero                       OFF
Method Log     :
Method Name    : Default
Date/Time stamp: 4/2/2025 11:22:42 AM
Method Modifications:
Overlayed Graphs Changed: 4/2/2025 11:23:29 AM, Old:OFF, New:ON
Cell Changer Changed: 4/2/2025 11:23:29 AM, Old:OFF, New:ON
Cell2 Changed: 4/2/2025 11:23:29 AM, Old:OFF, New:ON
Monitoring device: Changed: 4/2/2025 11:23:29 AM, Old:PCB 150, New:Block
Excitation Wavelength Changed: 4/2/2025 11:23:29 AM, Old: 350.00, New: 295.00
Emission Wavelength Changed: 4/2/2025 11:23:29 AM, Old: 400.00, New: 300.00
Stop Wavelength Changed: 4/2/2025 11:23:29 AM, Old: 600.00, New: 450.00
PMT Volts Changed: 4/2/2025 11:24:58 AM, Old:600, New:700
Emission PMT (V): Changed: 4/2/2025 11:24:58 AM, Old: 600, New: 700
PMT Volts Changed: 4/2/2025 11:25:59 AM, Old:700, New:800
Emission PMT (V): Changed: 4/2/2025 11:25:59 AM, Old: 700, New: 800
PMT Volts Changed: 4/2/2025 11:27:00 AM, Old:800, New:750
Emission PMT (V): Changed: 4/2/2025 11:27:00 AM, Old: 800, New: 750
PMT Volts Changed: 4/2/2025 11:27:45 AM, Old:750, New:740
Emission PMT (V): Changed: 4/2/2025 11:27:45 AM, Old: 750, New: 740
Sample2 Changed: 4/2/2025 11:28:02 AM, Old:Sample2, New:0M
Sample2 Changed: 4/2/2025 11:47:06 AM, Old:0M, New:1M
Sample2 Changed: 4/2/2025 12:14:51 PM, Old:1M, New:2M
End Method Modifications

3M,
3M
Collection Time: 4/2/2025 12:31:43 PM
Operator Name  :
Scan Software Version: 1.2(147)
Parameter List :
Instrument                        Cary Eclipse
Instrument Serial Number          EL00063371
Data mode                         Fluorescence
Scan mode                         Emission
X Mode                            Wavelength (nm)
Start (nm)                        300.00
Stop (nm)                         450.00
Ex. Wavelength (nm)               295.00
Ex. Slit (nm)                     5
Em. Slit (nm)                     5
Scan rate (nm/min)                600.00
Data interval (nm)                1.0000
Averaging Time (s)                0.1000
Excitation filter                 Auto
Emission filter                   Open
PMT voltage (V)                   740
Corrected spectra                 OFF
Multicell holder                  Multicell
Multi zero                       OFF
Method Log     :
Method Name    : Default
Date/Time stamp: 4/2/2025 11:22:42 AM
Method Modifications:
Overlayed Graphs Changed: 4/2/2025 11:23:29 AM, Old:OFF, New:ON
Cell Changer Changed: 4/2/2025 11:23:29 AM, Old:OFF, New:ON
Cell2 Changed: 4/2/2025 11:23:29 AM, Old:OFF, New:ON
Monitoring device: Changed: 4/2/2025 11:23:29 AM, Old:PCB 150, New:Block
Excitation Wavelength Changed: 4/2/2025 11:23:29 AM, Old: 350.00, New: 295.00
Emission Wavelength Changed: 4/2/2025 11:23:29 AM, Old: 400.00, New: 300.00
Stop Wavelength Changed: 4/2/2025 11:23:29 AM, Old: 600.00, New: 450.00
PMT Volts Changed: 4/2/2025 11:24:58 AM, Old:600, New:700
Emission PMT (V): Changed: 4/2/2025 11:24:58 AM, Old: 600, New: 700
PMT Volts Changed: 4/2/2025 11:25:59 AM, Old:700, New:800
Emission PMT (V): Changed: 4/2/2025 11:25:59 AM, Old: 700, New: 800
PMT Volts Changed: 4/2/2025 11:27:00 AM, Old:800, New:750
Emission PMT (V): Changed: 4/2/2025 11:27:00 AM, Old: 800, New: 750
PMT Volts Changed: 4/2/2025 11:27:45 AM, Old:750, New:740
Emission PMT (V): Changed: 4/2/2025 11:27:45 AM, Old: 750, New: 740
Sample2 Changed: 4/2/2025 11:28:02 AM, Old:Sample2, New:0M
Sample2 Changed: 4/2/2025 11:47:06 AM, Old:0M, New:1M
Sample2 Changed: 4/2/2025 12:14:51 PM, Old:1M, New:2M
Sample2 Changed: 4/2/2025 12:31:43 PM, Old:2M, New:3M
End Method Modifications

